PE FL                   SPECTRUM    ASCII       PEDS        1.60        
  -1
QUENCH~2
23/10/11
13:47:34.00
23/10/11
13:47:34.00


424.500000
1









LS55
316.00
5.00
5.00
SCAN
1
16
100
100
0
100
0
1
0
1
7
ON
430 316 
1 0 0
#HDR
-1
-1
#GR
NM

0.00002384185791015625
0.0
330.000000
0.500000
190
8
107.618251
13.293984
#DATA
330.000000	13.325000  
330.500000	13.293984  
331.000000	13.495142  
331.500000	13.937896  
332.000000	14.564351  
332.500000	15.319417  
333.000000	16.118528  
333.500000	16.892931  
334.000000	17.693563  
334.500000	18.504072  
335.000000	19.334098  
335.500000	20.317619  
336.000000	21.504284  
336.500000	23.012499  
337.000000	24.907048  
337.500000	27.039870  
338.000000	29.253302  
338.500000	31.645849  
339.000000	34.170489  
339.500000	36.716739  
340.000000	39.240402  
340.500000	41.581577  
341.000000	43.822117  
341.500000	46.192044  
342.000000	48.574623  
342.500000	51.090675  
343.000000	53.749775  
343.500000	56.600031  
344.000000	59.574450  
344.500000	62.471876  
345.000000	65.201315  
345.500000	67.554108  
346.000000	69.850014  
346.500000	71.957597  
347.000000	73.956426  
347.500000	75.959762  
348.000000	78.099899  
348.500000	80.374166  
349.000000	82.393949  
349.500000	84.378971  
350.000000	86.087519  
350.500000	87.874274  
351.000000	89.763473  
351.500000	91.638796  
352.000000	93.577503  
352.500000	95.702671  
353.000000	97.958700  
353.500000	99.916868  
354.000000	101.571757 
354.500000	102.725755 
355.000000	103.529921 
355.500000	104.160632 
356.000000	104.731283 
356.500000	105.245225 
357.000000	105.745121 
357.500000	106.365372 
358.000000	106.946221 
358.500000	107.400659 
359.000000	107.605105 
359.500000	107.618251 
360.000000	107.312766 
360.500000	106.984375 
361.000000	106.687452 
361.500000	106.500876 
362.000000	106.473683 
362.500000	106.465737 
363.000000	106.374571 
363.500000	106.037669 
364.000000	105.570513 
364.500000	104.831943 
365.000000	103.952395 
365.500000	102.852549 
366.000000	101.670033 
366.500000	100.548720 
367.000000	99.338996  
367.500000	98.198147  
368.000000	97.045946  
368.500000	95.941398  
369.000000	94.886268  
369.500000	93.812406  
370.000000	92.459278  
370.500000	90.935027  
371.000000	89.262570  
371.500000	87.549889  
372.000000	85.830180  
372.500000	84.277516  
373.000000	82.934020  
373.500000	81.908534  
374.000000	81.232406  
374.500000	80.905761  
375.000000	80.688328  
375.500000	80.143435  
376.000000	79.373881  
376.500000	78.318792  
377.000000	77.081626  
377.500000	75.801131  
378.000000	74.563719  
378.500000	73.467544  
379.000000	72.682909  
379.500000	72.145145  
380.000000	71.500321  
380.500000	70.982879  
381.000000	70.434718  
381.500000	69.787196  
382.000000	69.241672  
382.500000	68.765437  
383.000000	68.207115  
383.500000	67.571971  
384.000000	66.647233  
384.500000	65.481612  
385.000000	64.096740  
385.500000	62.524031  
386.000000	60.715792  
386.500000	58.917403  
387.000000	57.310327  
387.500000	55.927721  
388.000000	54.864178  
388.500000	53.756222  
389.000000	52.784376  
389.500000	52.018585  
390.000000	51.404136  
390.500000	50.879548  
391.000000	50.236999  
391.500000	49.709607  
392.000000	49.106892  
392.500000	48.711935  
393.000000	48.069695  
393.500000	47.155730  
394.000000	46.099978  
394.500000	45.014029  
395.000000	44.119959  
395.500000	43.172834  
396.000000	42.159855  
396.500000	40.998821  
397.000000	39.854564  
397.500000	38.714314  
398.000000	37.354709  
398.500000	35.956885  
399.000000	34.638577  
399.500000	33.622345  
400.000000	32.859745  
400.500000	32.233434  
401.000000	31.594218  
401.500000	30.917521  
402.000000	30.218515  
402.500000	29.433257  
403.000000	28.499714  
403.500000	27.583556  
404.000000	26.750461  
404.500000	26.172842  
405.000000	25.842403  
405.500000	25.796266  
406.000000	25.773817  
406.500000	25.627267  
407.000000	25.384456  
407.500000	24.878004  
408.000000	24.303178  
408.500000	23.570339  
409.000000	22.729740  
409.500000	21.935981  
410.000000	21.296916  
410.500000	20.830674  
411.000000	20.466745  
411.500000	20.295981  
412.000000	20.145147  
412.500000	20.164930  
413.000000	20.239909  
413.500000	20.306633  
414.000000	20.313566  
414.500000	20.257221  
415.000000	20.110773  
415.500000	19.938067  
416.000000	19.735107  
416.500000	19.423327  
417.000000	19.123925  
417.500000	18.873030  
418.000000	18.638313  
418.500000	18.439350  
419.000000	18.244830  
419.500000	18.058618  
420.000000	17.941668  
420.500000	17.806717  
421.000000	17.626703  
421.500000	17.488327  
422.000000	17.397501  
422.500000	17.310877  
423.000000	17.194356  
423.500000	17.053755  
424.000000	16.824124  
424.500000	16.560714  

