PE FL                   SPECTRUM    ASCII       PEDS        1.60        
  -1
PMF07D~1
23/10/10
10:57:51.00
23/10/10
10:57:51.00


444.500000
1









LS55
5.00
5.00
5.00
SCAN
1
20
100
100
0
500
0
2
0
1
7
ON
500 450 
1 0 0
#HDR
-1
-1
#GR
NM

0.00002384185791015625
0.0
300.000000
0.500000
290
8
58.734859
-2.275028
#DATA
300.000000	-0.988999 
300.500000	-1.108312 
301.000000	-1.149370 
301.500000	-0.689032 
302.000000	-0.265877 
302.500000	0.173227  
303.000000	0.564929  
303.500000	0.865057  
304.000000	0.777638  
304.500000	0.355270  
305.000000	-0.417179 
305.500000	-1.367630 
306.000000	-1.851165 
306.500000	-2.141510 
307.000000	-2.275028 
307.500000	-2.012597 
308.000000	-1.530898 
308.500000	-0.702898 
309.000000	0.143747  
309.500000	0.751013  
310.000000	0.849155  
310.500000	0.837653  
311.000000	0.638793  
311.500000	0.232241  
312.000000	-0.108804 
312.500000	-0.537987 
313.000000	-0.500504 
313.500000	-0.175519 
314.000000	0.405913  
314.500000	1.075792  
315.000000	1.676464  
315.500000	2.206348  
316.000000	2.595362  
316.500000	2.784315  
317.000000	2.575908  
317.500000	2.331805  
318.000000	2.227222  
318.500000	2.418958  
319.000000	2.958136  
319.500000	3.621053  
320.000000	4.519536  
320.500000	5.596852  
321.000000	6.567396  
321.500000	7.234068  
322.000000	7.612466  
322.500000	7.782369  
323.000000	7.914025  
323.500000	8.099334  
324.000000	8.161488  
324.500000	8.401086  
325.000000	8.945676  
325.500000	9.663968  
326.000000	10.317588 
326.500000	10.753749 
327.000000	11.027967 
327.500000	11.712658 
328.000000	12.530509 
328.500000	13.257602 
329.000000	13.919560 
329.500000	14.514756 
330.000000	15.293314 
330.500000	15.876776 
331.000000	16.243116 
331.500000	16.182808 
332.000000	16.080924 
332.500000	16.268204 
333.000000	16.497194 
333.500000	16.773972 
334.000000	17.169076 
334.500000	18.060023 
335.000000	19.205589 
335.500000	20.521173 
336.000000	21.663159 
336.500000	22.599000 
337.000000	23.750973 
337.500000	24.676508 
338.000000	25.209231 
338.500000	25.540163 
339.000000	25.876667 
339.500000	26.004882 
340.000000	26.044542 
340.500000	25.957839 
341.000000	25.614682 
341.500000	25.339496 
342.000000	25.013194 
342.500000	24.348464 
343.000000	23.640696 
343.500000	23.228316 
344.000000	22.848238 
344.500000	22.496904 
345.000000	22.358364 
345.500000	22.457452 
346.000000	22.702909 
346.500000	23.280352 
347.000000	23.721575 
347.500000	24.300922 
348.000000	25.239269 
348.500000	26.006009 
349.000000	26.526190 
349.500000	27.111783 
350.000000	27.888094 
350.500000	28.595301 
351.000000	29.422528 
351.500000	29.811661 
352.000000	30.041657 
352.500000	30.619970 
353.000000	31.248379 
353.500000	31.591148 
354.000000	32.230683 
354.500000	33.295481 
355.000000	34.709283 
355.500000	36.895203 
356.000000	39.086471 
356.500000	41.144814 
357.000000	43.563582 
357.500000	46.070713 
358.000000	48.279100 
358.500000	50.009174 
359.000000	51.368205 
359.500000	52.132090 
360.000000	52.902180 
360.500000	53.611290 
361.000000	53.932106 
361.500000	54.289359 
362.000000	54.812118 
362.500000	55.525819 
363.000000	56.220447 
363.500000	56.934875 
364.000000	57.230700 
364.500000	57.421325 
365.000000	57.485832 
365.500000	57.247793 
366.000000	56.644954 
366.500000	55.679044 
367.000000	54.876682 
367.500000	53.743206 
368.000000	52.813569 
368.500000	52.058848 
369.000000	51.351501 
369.500000	51.075265 
370.000000	51.171453 
370.500000	51.243670 
371.000000	51.199386 
371.500000	51.428665 
372.000000	51.302068 
372.500000	51.185718 
373.000000	51.280589 
373.500000	51.324077 
374.000000	51.806557 
374.500000	52.885435 
375.000000	54.065382 
375.500000	55.146060 
376.000000	56.516816 
376.500000	57.546118 
377.000000	58.034505 
377.500000	58.395560 
378.000000	58.282103 
378.500000	57.957289 
379.000000	57.763365 
379.500000	57.384172 
380.000000	56.970076 
380.500000	56.749728 
381.000000	56.606142 
381.500000	56.184146 
382.000000	55.764579 
382.500000	55.277929 
383.000000	54.686796 
383.500000	54.043987 
384.000000	53.137338 
384.500000	52.080800 
385.000000	51.068959 
385.500000	50.036757 
386.000000	48.867108 
386.500000	47.579051 
387.000000	46.084140 
387.500000	44.640126 
388.000000	43.091733 
388.500000	41.412141 
389.000000	39.572478 
389.500000	37.559803 
390.000000	35.270260 
390.500000	33.049461 
391.000000	30.907304 
391.500000	28.742949 
392.000000	26.887999 
392.500000	25.377930 
393.000000	24.354012 
393.500000	23.739299 
394.000000	23.332656 
394.500000	22.972887 
395.000000	22.842266 
395.500000	22.798460 
396.000000	22.561143 
396.500000	22.281282 
397.000000	21.981287 
397.500000	21.707045 
398.000000	21.455643 
398.500000	21.114181 
399.000000	20.661234 
399.500000	20.162586 
400.000000	19.569931 
400.500000	18.790796 
401.000000	17.900317 
401.500000	17.017973 
402.000000	16.350960 
402.500000	15.831590 
403.000000	15.320264 
403.500000	14.925617 
404.000000	14.701844 
404.500000	14.541363 
405.000000	14.284753 
405.500000	13.980554 
406.000000	13.514740 
406.500000	13.026379 
407.000000	12.555298 
407.500000	11.967762 
408.000000	11.396153 
408.500000	10.992553 
409.000000	10.753445 
409.500000	10.632910 
410.000000	10.694074 
410.500000	10.875546 
411.000000	11.162793 
411.500000	11.474825 
412.000000	11.677473 
412.500000	11.815237 
413.000000	11.949588 
413.500000	12.039984 
414.000000	12.015296 
414.500000	11.928117 
415.000000	11.874623 
415.500000	12.002580 
416.000000	12.198656 
416.500000	12.389725 
417.000000	12.683945 
417.500000	13.101585 
418.000000	13.612385 
418.500000	14.129758 
419.000000	14.474148 
419.500000	14.657866 
420.000000	14.981643 
420.500000	15.286555 
421.000000	15.424601 
421.500000	15.538540 
422.000000	15.704800 
422.500000	15.897863 
423.000000	16.208445 
423.500000	16.560697 
424.000000	16.855013 
424.500000	17.298758 
425.000000	17.973986 
425.500000	18.735386 
426.000000	19.511496 
426.500000	20.196726 
427.000000	20.694958 
427.500000	21.143735 
428.000000	21.474244 
428.500000	21.649102 
429.000000	21.801351 
429.500000	22.049749 
430.000000	22.612784 
430.500000	23.587818 
431.000000	24.868454 
431.500000	26.321150 
432.000000	28.038489 
432.500000	30.254636 
433.000000	32.775633 
433.500000	35.366946 
434.000000	37.816782 
434.500000	40.205100 
435.000000	42.369284 
435.500000	44.219552 
436.000000	45.474770 
436.500000	46.069976 
437.000000	46.444365 
437.500000	46.521930 
438.000000	46.439140 
438.500000	46.176221 
439.000000	46.089313 
439.500000	46.123745 
440.000000	46.775124 
440.500000	47.709666 
441.000000	48.854249 
441.500000	50.436531 
442.000000	52.130993 
442.500000	53.904278 
443.000000	55.530480 
443.500000	56.938637 
444.000000	57.825944 
444.500000	58.734859 

